File: djangobackend/media/ExperiData/2020020836/XRD/211118-001-002-XRD001.csv
Angle,Intensity
5.00657,779
5.04596,774
5.08535,744
5.12474,779
5.16413,761
5.20352,741
5.24291,770
5.2823,760
5.32169,775
5.36108,736
5.40047,779
5.43986,762
5.47926,753
5.51865,807
5.55804,701
5.59743,732
5.63682,686
5.67621,707
5.7156,791
5.75499,781
5.79438,791
5.83377,803
5.87316,776
5.91255,708
5.95195,735
5.99134,708
6.03073,779
6.07012,689
6.10951,734
6.1489,738
6.18829,720
6.22768,703
6.26707,705
6.30646,717
6.34585,700
6.38524,676
6.42464,740
6.46403,770
6.50342,711
6.54281,712
6.5822,737
6.62159,755
6.66098,701
6.70037,757
6.73976,694
6.77915,674
6.81854,711
6.85793,680
6.89733,681
6.93672,727
6.97611,681
7.0155,680
7.05489,707
7.09428,687
7.13367,679
7.17306,688
7.21245,683
7.25184,693
7.29123,732
7.33063,651
7.37002,727
7.40941,737
7.4488,723
7.48819,679
7.52758,689
7.56697,729
7.60636,664
7.64575,709
7.68514,671
7.72453,678
7.76392,645
7.80332,647
7.84271,637
7.8821,722
7.92149,673
7.96088,700
8.00027,671
8.03966,715
8.07905,698
8.11844,645
8.15783,715
8.19722,673
8.23661,650
8.27601,705
8.3154,695
8.35479,637
8.39418,676
8.43357,669
8.47296,702
8.51235,696
8.55174,667
8.59113,682
8.63052,660
8.66991,704
8.7093,691
8.7487,700
8.78809,689
8.82748,672
8.86687,630
8.90626,642
8.94565,665
8.98504,630
9.02443,615
9.06382,624
9.10321,641
9.1426,667
9.182,631
9.22139,629
9.26078,594
9.30017,653
9.33956,621
9.37895,621
9.41834,621
9.45773,627
9.49712,643
9.53651,642
9.5759,634
9.61529,635
9.65469,600
9.69408,626
9.73347,660
9.77286,654
9.81225,612
9.85164,652
9.89103,632
9.93042,583
9.96981,640
10.0092,619
10.0486,651
10.088,646
10.1274,675
10.1668,641
10.2062,594
10.2455,638
10.2849,631
10.3243,562
10.3637,601
10.4031,636
10.4425,570
10.4819,603
10.5213,605
10.5607,571
10.6001,584
10.6395,606
10.6788,657
10.7182,591
10.7576,622
10.797,589
10.8364,611
10.8758,573
10.9152,570
10.9546,579
10.994,611
11.0334,604
11.0728,571
11.1121,615
11.1515,569
11.1909,600
11.2303,637
11.2697,543
11.3091,652
11.3485,586
11.3879,576
11.4273,527
11.4667,628
11.5061,573
11.5454,592
11.5848,583
11.6242,626
11.6636,618
11.703,567
11.7424,581
11.7818,648
11.8212,597
11.8606,553
11.9,593
11.9394,570
11.9787,583
12.0181,557
12.0575,598
12.0969,586
12.1363,572
12.1757,596
12.2151,555
12.2545,610
12.2939,576
12.3333,615
12.3727,593
12.412,592
12.4514,652
12.4908,573
12.5302,568
12.5696,632
12.609,621
12.6484,585
12.6878,526
12.7272,618
12.7666,618
12.806,577
12.8453,550
12.8847,564
12.9241,573
12.9635,592
13.0029,572
13.0423,549
13.0817,561
13.1211,572
13.1605,570
13.1999,617
13.2393,584
13.2786,610
13.318,607
13.3574,585
13.3968,567
13.4362,597
13.4756,647
13.515,714
13.5544,702
13.5938,738
13.6332,737
13.6726,875
13.7119,1008
13.7513,1172
13.7907,1398
13.8301,1787
13.8695,2288
13.9089,3233
13.9483,5186
13.9877,8523
14.0271,8002
14.0665,3127
14.1059,1193
14.1452,916
14.1846,790
14.224,754
14.2634,647
14.3028,647
14.3422,572
14.3816,604
14.421,607
14.4604,612
14.4998,589
14.5392,590
14.5785,602
14.6179,618
14.6573,579
14.6967,621
14.7361,572
14.7755,559
14.8149,540
14.8543,567
14.8937,566
14.9331,609
14.9724,572
15.0118,557
15.0512,596
15.0906,529
15.13,581
15.1694,559
15.2088,580
15.2482,559
15.2876,574
15.327,571
15.3664,558
15.4057,511
15.4451,560
15.4845,558
15.5239,592
15.5633,538
15.6027,543
15.6421,532
15.6815,522
15.7209,530
15.7603,514
15.7997,491
15.839,565
15.8784,510
15.9178,568
15.9572,548
15.9966,516
16.036,536
16.0754,516
16.1148,555
16.1542,548
16.1936,509
16.233,563
16.2723,550
16.3117,523
16.3511,548
16.3905,521
16.4299,503
16.4693,510
16.5087,546
16.5481,507
16.5875,501
16.6269,541
16.6663,499
16.7056,534
16.745,540
16.7844,540
16.8238,503
16.8632,533
16.9026,547
16.942,549
16.9814,492
17.0208,503
17.0602,527
17.0996,513
17.1389,515
17.1783,542
17.2177,486
17.2571,532
17.2965,515
17.3359,462
17.3753,475
17.4147,511
17.4541,497
17.4935,508
17.5329,490
17.5722,469
17.6116,535
17.651,508
17.6904,509
17.7298,458
17.7692,528
17.8086,543
17.848,481
17.8874,481
17.9268,493
17.9662,483
18.0055,437
18.0449,485
18.0843,463
18.1237,449
18.1631,507
18.2025,539
18.2419,500
18.2813,513
18.3207,515
18.3601,506
18.3995,461
18.4388,497
18.4782,480
18.5176,499
18.557,438
18.5964,476
18.6358,492
18.6752,475
18.7146,447
18.754,535
18.7934,477
18.8328,458
18.8721,477
18.9115,460
18.9509,432
18.9903,455
19.0297,482
19.0691,468
19.1085,513
19.1479,472
19.1873,496
19.2267,475
19.2661,479
19.3054,454
19.3448,479
19.3842,428
19.4236,457
19.463,430
19.5024,486
19.5418,478
19.5812,455
19.6206,466
19.66,501
19.6994,512
19.7387,572
19.7781,626
19.8175,859
19.8569,955
19.8963,723
19.9357,543
19.9751,495
20.0145,496
20.0539,501
20.0933,503
20.1327,485
20.172,471
20.2114,459
20.2508,474
20.2902,453
20.3296,467
20.369,503
20.4084,407
20.4478,457
20.4872,461
20.5266,462
20.566,415
20.6053,476
20.6447,422
20.6841,441
20.7235,456
20.7629,462
20.8023,447
20.8417,413
20.8811,466
20.9205,397
20.9599,458
20.9992,459
21.0386,453
21.078,417
21.1174,442
21.1568,407
21.1962,433
21.2356,448
21.275,452
21.3144,454
21.3538,408
21.3932,485
21.4325,481
21.4719,461
21.5113,449
21.5507,493
21.5901,439
21.6295,444
21.6689,444
21.7083,444
21.7477,417
21.7871,425
21.8265,459
21.8658,474
21.9052,499
21.9446,465
21.984,424
22.0234,414
22.0628,407
22.1022,429
22.1416,463
22.181,416
22.2204,462
22.2598,471
22.2991,467
22.3385,451
22.3779,487
22.4173,438
22.4567,466
22.4961,427
22.5355,447
22.5749,455
22.6143,433
22.6537,434
22.6931,451
22.7324,416
22.7718,434
22.8112,405
22.8506,455
22.89,422
22.9294,397
22.9688,419
23.0082,471
23.0476,446
23.087,457
23.1264,420
23.1657,455
23.2051,436
23.2445,395
23.2839,413
23.3233,439
23.3627,440
23.4021,439
23.4415,424
23.4809,426
23.5203,406
23.5597,468
23.599,460
23.6384,453
23.6778,439
23.7172,424
23.7566,439
23.796,489
23.8354,449
23.8748,461
23.9142,482
23.9536,465
23.993,479
24.0323,430
24.0717,436
24.1111,441
24.1505,531
24.1899,538
24.2293,656
24.2687,871
24.3081,1253
24.3475,2015
24.3869,1993
24.4263,1563
24.4656,970
24.505,629
24.5444,519
24.5838,493
24.6232,431
24.6626,468
24.702,470
24.74138,450
24.7808,419
24.8202,452
24.8596,477
24.8989,416
24.9383,382
24.9777,394
25.0171,395
25.0565,428
25.0959,379
25.1353,423
25.1747,435
25.2141,394
25.2535,421
25.2929,454
25.3322,443
25.3716,423
25.411,443
25.4504,477
25.4898,395
25.5292,397
25.5686,452
25.608,412
25.6474,423
25.6868,444
25.7262,400
25.7655,397
25.8049,442
25.8443,439
25.8837,441
25.9231,448
25.9625,409
26.0019,449
26.0413,462
26.0807,431
26.1201,459
26.1595,475
26.1988,461
26.2382,423
26.2776,546
26.317,478
26.3564,531
26.3958,626
26.4352,691
26.4746,824
26.514,919
26.5534,833
26.5927,686
26.6321,627
26.6715,603
26.7109,472
26.7503,464
26.7897,470
26.8291,408
26.8685,481
26.9079,448
26.9473,444
26.9867,431
27.026,447
27.0654,366
27.1048,403
27.1442,428
27.1836,439
27.223,480
27.2624,456
27.3018,438
27.3412,396
27.3806,461
27.42,452
27.4593,419
27.4987,466
27.5381,445
27.5775,415
27.6169,416
27.6563,471
27.6957,453
27.7351,471
27.7745,425
27.8139,443
27.8533,453
27.8926,481
27.932,569
27.9714,641
28.0108,771
28.0502,1010
28.0896,1393
28.129,2368
28.1684,4851
28.2078,4916
28.2472,3371
28.2866,2095
28.3259,932
28.3653,650
28.4047,610
28.4441,492
28.4835,529
28.5229,440
28.5623,415
28.6017,420
28.6411,420
28.6805,410
28.7199,394
28.7592,413
28.7986,435
28.838,409
28.8774,391
28.9168,381
28.9562,369
28.9956,405
29.035,421
29.0744,375
29.1138,414
29.1532,395
29.1925,369
29.2319,373
29.2713,401
29.3107,378
29.3501,386
29.3895,397
29.4289,361
29.4683,339
29.5077,373
29.5471,409
29.5865,357
29.6258,383
29.6652,372
29.7046,375
29.744,355
29.7834,330
29.8228,353
29.8622,377
29.9016,397
29.941,338
29.9804,355
30.0198,382
30.0591,371
30.0985,386
30.1379,383
30.1773,371
30.2167,349
30.2561,368
30.2955,359
30.3349,343
30.3743,346
30.4137,338
30.4531,335
30.4924,353
30.5318,347
30.5712,377
30.6106,369
30.65,389
30.6894,352
30.7288,320
30.7682,334
30.8076,364
30.847,367
30.8864,341
30.9257,338
30.9651,350
31.0045,339
31.0439,359
31.0833,343
31.1227,354
31.1621,369
31.2015,355
31.2409,411
31.2803,386
31.3197,420
31.359,388
31.3984,394
31.4378,483
31.4772,498
31.5166,709
31.556,1123
31.5954,1627
31.6348,1372
31.6742,1109
31.7136,835
31.753,503
31.7923,381
31.8317,409
31.8711,320
31.9105,359
31.9499,339
31.9893,370
32.0287,354
32.0681,310
32.1075,364
32.1469,393
32.1863,384
32.2256,385
32.265,340
32.3044,329
32.3438,320
32.3832,331
32.4226,337
32.462,327
32.5014,327
32.5408,344
32.5802,334
32.6195,368
32.6589,315
32.6983,338
32.7377,334
32.7771,313
32.8165,304
32.8559,327
32.8953,351
32.9347,311
32.9741,312
33.0135,309
33.0528,283
33.0922,282
33.1316,349
33.171,330
33.2104,317
33.2498,318
33.2892,321
33.3286,333
33.368,318
33.4074,323
33.4468,334
33.4861,322
33.5255,332
33.5649,346
33.6043,333
33.6437,389
33.6831,382
33.7225,451
33.7619,413
33.8013,371
33.8407,379
33.8801,313
33.9194,352
33.9588,319
33.9982,348
34.0376,332
34.077,321
34.1164,349
34.1558,318
34.1952,285
34.2346,299
34.274,330
34.3134,310
34.3527,329
34.3921,308
34.4315,311
34.4709,283
34.5103,307
34.5497,352
34.5891,325
34.6285,407
34.6679,566
34.7073,690
34.7467,636
34.786,599
34.8254,498
34.8648,348
34.9042,290
34.9436,332
34.983,297
35.0224,290
35.0618,275
35.1012,273
35.1406,283
35.18,272
35.2193,265
35.2587,326
35.2981,276
35.3375,293
35.3769,285
35.4163,281
35.4557,319
35.4951,283
35.5345,297
35.5739,272
35.6133,278
35.6526,314
35.692,288
35.7314,258
35.7708,319
35.8102,273
35.8496,289
35.88899,260
35.9284,278
35.9678,269
36.0072,284
36.0466,256
36.0859,261
36.1253,265
36.1647,304
36.2041,249
36.2435,267
36.2829,256
36.3223,290
36.3617,281
36.4011,280
36.4405,310
36.4799,306
36.5192,309
36.5586,248
36.598,262
36.6374,237
36.6768,231
36.7162,291
36.7556,249
36.795,291
36.8344,301
36.8738,267
36.9132,266
36.9525,238
36.9919,264
37.0313,256
37.0707,298
37.1101,241
37.1495,284
37.1889,269
37.2283,294
37.2677,276
37.3071,290
37.3465,302
37.3858,293
37.4252,300
37.4646,260
37.504,280
37.5434,313
37.5828,362
37.6222,361
37.6616,431
37.701,535
37.7404,694
37.7798,790
37.8191,833
37.8585,760
37.8979,674
37.9373,600
37.9767,484
38.0161,426
38.0555,374
38.0949,300
38.1343,291
38.1737,306
38.2131,223
38.2524,272
38.2918,286
38.3312,249
38.3706,244
38.41,237
38.4494,292
38.4888,232
38.5282,236
38.5676,255
38.607,264
38.6463,216
38.6857,269
38.7251,258
38.7645,227
38.8039,272
38.8433,243
38.8827,243
38.9221,243
38.9615,262
39.0009,232
39.0403,264
39.0796,224
39.119,267
39.1584,238
39.1978,256
39.2372,256
39.2766,239
39.316,255
39.3554,234
39.3948,274
39.4342,235
39.4736,215
39.5129,229
39.5523,236
39.5917,285
39.6311,248
39.6705,221
39.7099,239
39.7493,246
39.7887,302
39.8281,220
39.8675,212
39.9069,242
39.9462,236
39.9856,292
40.025,287
40.0644,275
40.1038,279
40.1432,304
40.1826,358
40.222,544
40.2614,821
40.3008,978
40.3402,828
40.3795,756
40.4189,564
40.4583,396
40.4977,311
40.5371,279
40.5765,235
40.6159,256
40.6553,269
40.6947,258
40.7341,273
40.7735,227
40.8128,246
40.8522,249
40.8916,255
40.931,210
40.9704,237
41.0098,228
41.0492,241
41.0886,242
41.128,261
41.1674,244
41.2068,221
41.2461,240
41.2855,238
41.3249,257
41.3643,248
41.4037,205
41.4431,225
41.4825,239
41.5219,223
41.5613,232
41.6007,230
41.6401,263
41.6794,232
41.7188,236
41.7582,246
41.7976,231
41.837,245
41.8764,239
41.9158,243
41.9552,214
41.9946,225
42.034,242
42.0734,214
42.1127,208
42.1521,236
42.1915,248
42.2309,228
42.2703,271
42.3097,234
42.3491,246
42.3885,261
42.4279,268
42.4673,227
42.5067,273
42.546,262
42.5854,241
42.6248,257
42.6642,291
42.7036,341
42.743,375
42.7824,550
42.8218,841
42.8612,879
42.9006,743
42.94,732
42.9793,576
43.0187,422
43.0581,340
43.0975,257
43.1369,255
43.1763,271
43.2157,258
43.2551,256
43.2945,240
43.3339,248
43.3733,266
43.4126,215
43.452,210
43.4914,225
43.5308,239
43.5702,224
43.6096,213
43.649,228
43.6884,202
43.7278,230
43.7672,201
43.8066,226
43.8459,224
43.8853,228
43.9247,238
43.9641,207
44.0035,225
44.0429,200
44.0823,198
44.1217,208
44.1611,201
44.2005,216
44.2398,235
44.2792,218
44.3186,239
44.358,218
44.3974,246
44.4368,212
44.4762,196
44.5156,228
44.555,215
44.5944,209
44.6338,227
44.6731,221
44.7125,214
44.7519,212
44.7913,194
44.8307,237
44.8701,202
44.9095,207
44.9489,213
44.9883,205
45.0277,210
45.0671,216
45.1064,219
45.1458,226
45.1852,189
45.2246,241
45.264,213
45.3034,230
45.3428,216
45.3822,196
45.4216,189
45.461,212
45.5004,201
45.5397,188
45.5791,207
45.6185,195
45.6579,196
45.6973,176
45.7367,175
45.7761,205
45.8155,223
45.8549,222
45.8943,174
45.9337,179
45.973,197
46.0124,225
46.0518,186
46.0912,168
46.1306,172
46.17,218
46.2094,201
46.2488,230
46.2882,166
46.3276,193
46.367,208
46.4063,197
46.4457,186
46.4851,201
46.5245,166
46.5639,190
46.6033,184
46.6427,203
46.6821,196
46.7215,207
46.7609,220
46.8003,190
46.8396,222
46.879,198
46.9184,202
46.9578,183
46.9972,223
47.0366,211
47.076,186
47.1154,179
47.1548,207
47.1942,185
47.2336,217
47.2729,219
47.3123,223
47.3517,170
47.3911,191
47.4305,202
47.4699,189
47.5093,222
47.5487,217
47.5881,234
47.6275,221
47.6669,227
47.7062,243
47.7456,194
47.785,211
47.8244,185
47.8638,208
47.9032,230
47.9426,161
47.982,213
48.0214,201
48.0608,193
48.1002,189
48.1395,199
48.1789,195
48.2183,192
48.2577,199
48.2971,201
48.3365,202
48.3759,181
48.4153,190
48.4547,208
48.4941,193
48.5335,182
48.5728,197
48.6122,182
48.6516,193
48.691,194
48.7304,189
48.7698,196
48.8092,223
48.8486,199
48.888,197
48.9274,213
48.9668,184
49.0061,188
49.0455,196
49.0849,195
49.1243,187
49.1637,176
49.2031,179
49.2425,198
49.2819,172
49.3213,192
49.3607,184
49.4001,185
49.4394,181
49.4788,194
49.5182,178
49.5576,205
49.597,206
49.6364,197
49.6758,193
49.7152,208
49.7546,236
49.794,304
49.8334,443
49.8727,571
49.9121,611
49.9515,586
49.9909,506