File: djangobackend/media/ExperiData/2020020836/XRD/211118-001-001-XRD005.csv
Angle,Intensity
5.00657,750
5.04596,787
5.08535,773
5.12474,752
5.16413,756
5.20352,714
5.24291,758
5.2823,716
5.32169,748
5.36108,715
5.40047,763
5.43986,734
5.47926,819
5.51865,781
5.55804,707
5.59743,728
5.63682,801
5.67621,738
5.7156,717
5.75499,760
5.79438,735
5.83377,724
5.87316,742
5.91255,730
5.95195,691
5.99134,740
6.03073,783
6.07012,744
6.10951,710
6.1489,743
6.18829,744
6.22768,727
6.26707,743
6.30646,783
6.34585,688
6.38524,772
6.42464,754
6.46403,714
6.50342,725
6.54281,685
6.5822,722
6.62159,714
6.66098,713
6.70037,685
6.73976,718
6.77915,728
6.81854,681
6.85793,737
6.89733,666
6.93672,691
6.97611,697
7.0155,696
7.05489,686
7.09428,688
7.13367,746
7.17306,727
7.21245,685
7.25184,705
7.29123,734
7.33063,705
7.37002,699
7.40941,705
7.4488,728
7.48819,709
7.52758,704
7.56697,730
7.60636,726
7.64575,725
7.68514,704
7.72453,687
7.76392,671
7.80332,656
7.84271,638
7.8821,684
7.92149,710
7.96088,719
8.00027,702
8.03966,687
8.07905,711
8.11844,698
8.15783,682
8.19722,672
8.23661,677
8.27601,694
8.3154,710
8.35479,697
8.39418,691
8.43357,649
8.47296,702
8.51235,665
8.55174,660
8.59113,651
8.63052,635
8.66991,633
8.7093,687
8.7487,660
8.78809,630
8.82748,675
8.86687,705
8.90626,628
8.94565,684
8.98504,680
9.02443,675
9.06382,650
9.10321,686
9.1426,677
9.182,662
9.22139,618
9.26078,644
9.30017,670
9.33956,623
9.37895,652
9.41834,634
9.45773,630
9.49712,626
9.53651,640
9.5759,634
9.61529,604
9.65469,633
9.69408,669
9.73347,571
9.77286,670
9.81225,641
9.85164,625
9.89103,604
9.93042,620
9.96981,621
10.0092,604
10.0486,637
10.088,602
10.1274,638
10.1668,590
10.2062,616
10.2455,612
10.2849,622
10.3243,587
10.3637,597
10.4031,591
10.4425,600
10.4819,644
10.5213,639
10.5607,650
10.6001,571
10.6395,631
10.6788,610
10.7182,611
10.7576,588
10.797,639
10.8364,566
10.8758,608
10.9152,604
10.9546,578
10.994,635
11.0334,532
11.0728,573
11.1121,570
11.1515,641
11.1909,591
11.2303,603
11.2697,588
11.3091,625
11.3485,535
11.3879,630
11.4273,560
11.4667,632
11.5061,546
11.5454,591
11.5848,606
11.6242,607
11.6636,581
11.703,598
11.7424,616
11.7818,602
11.8212,577
11.8606,591
11.9,583
11.9394,631
11.9787,611
12.0181,612
12.0575,593
12.0969,597
12.1363,627
12.1757,637
12.2151,614
12.2545,602
12.2939,577
12.3333,573
12.3727,578
12.412,578
12.4514,578
12.4908,558
12.5302,579
12.5696,590
12.609,595
12.6484,599
12.6878,616
12.7272,607
12.7666,524
12.806,580
12.8453,594
12.8847,542
12.9241,565
12.9635,558
13.0029,580
13.0423,552
13.0817,615
13.1211,569
13.1605,585
13.1999,556
13.2393,597
13.2786,572
13.318,585
13.3574,596
13.3968,553
13.4362,606
13.4756,634
13.515,658
13.5544,656
13.5938,717
13.6332,790
13.6726,924
13.7119,919
13.7513,1112
13.7907,1283
13.8301,1670
13.8695,2131
13.9089,2873
13.9483,4432
13.9877,7303
14.0271,9178
14.0665,4694
14.1059,1513
14.1452,1029
14.1846,846
14.224,699
14.2634,751
14.3028,666
14.3422,660
14.3816,601
14.421,628
14.4604,648
14.4998,624
14.5392,615
14.5785,591
14.6179,579
14.6573,582
14.6967,610
14.7361,563
14.7755,576
14.8149,551
14.8543,548
14.8937,534
14.9331,573
14.9724,570
15.0118,543
15.0512,555
15.0906,539
15.13,561
15.1694,562
15.2088,561
15.2482,588
15.2876,569
15.327,593
15.3664,563
15.4057,519
15.4451,591
15.4845,539
15.5239,582
15.5633,561
15.6027,542
15.6421,541
15.6815,556
15.7209,522
15.7603,562
15.7997,596
15.839,491
15.8784,594
15.9178,514
15.9572,570
15.9966,547
16.036,521
16.0754,552
16.1148,505
16.1542,586
16.1936,546
16.233,504
16.2723,532
16.3117,546
16.3511,541
16.3905,508
16.4299,532
16.4693,549
16.5087,568
16.5481,522
16.5875,509
16.6269,564
16.6663,491
16.7056,536
16.745,568
16.7844,572
16.8238,481
16.8632,487
16.9026,530
16.942,499
16.9814,519
17.0208,519
17.0602,536
17.0996,493
17.1389,570
17.1783,448
17.2177,499
17.2571,531
17.2965,472
17.3359,473
17.3753,556
17.4147,481
17.4541,497
17.4935,482
17.5329,487
17.5722,482
17.6116,498
17.651,510
17.6904,500
17.7298,454
17.7692,502
17.8086,508
17.848,475
17.8874,513
17.9268,486
17.9662,476
18.0055,511
18.0449,452
18.0843,476
18.1237,485
18.1631,467
18.2025,504
18.2419,440
18.2813,463
18.3207,471
18.3601,502
18.3995,476
18.4388,456
18.4782,454
18.5176,483
18.557,462
18.5964,478
18.6358,467
18.6752,497
18.7146,452
18.754,465
18.7934,443
18.8328,492
18.8721,478
18.9115,448
18.9509,494
18.9903,474
19.0297,444
19.0691,453
19.1085,481
19.1479,458
19.1873,507
19.2267,444
19.2661,499
19.3054,467
19.3448,466
19.3842,436
19.4236,418
19.463,463
19.5024,529
19.5418,483
19.5812,493
19.6206,473
19.66,524
19.6994,499
19.7387,538
19.7781,597
19.8175,689
19.8569,806
19.8963,786
19.9357,604
19.9751,540
20.0145,468
20.0539,437
20.0933,496
20.1327,426
20.172,448
20.2114,434
20.2508,465
20.2902,426
20.3296,499
20.369,487
20.4084,449
20.4478,458
20.4872,417
20.5266,482
20.566,416
20.6053,436
20.6447,459
20.6841,471
20.7235,474
20.7629,459
20.8023,441
20.8417,441
20.8811,462
20.9205,451
20.9599,447
20.9992,442
21.0386,433
21.078,442
21.1174,481
21.1568,436
21.1962,437
21.2356,439
21.275,418
21.3144,430
21.3538,441
21.3932,443
21.4325,426
21.4719,441
21.5113,445
21.5507,434
21.5901,430
21.6295,466
21.6689,406
21.7083,425
21.7477,398
21.7871,473
21.8265,449
21.8658,451
21.9052,429
21.9446,451
21.984,457
22.0234,472
22.0628,450
22.1022,439
22.1416,419
22.181,448
22.2204,429
22.2598,438
22.2991,447
22.3385,427
22.3779,456
22.4173,486
22.4567,431
22.4961,430
22.5355,473
22.5749,411
22.6143,420
22.6537,433
22.6931,428
22.7324,446
22.7718,431
22.8112,422
22.8506,453
22.89,394
22.9294,453
22.9688,427
23.0082,454
23.0476,405
23.087,454
23.1264,426
23.1657,417
23.2051,424
23.2445,441
23.2839,447
23.3233,433
23.3627,458
23.4021,434
23.4415,420
23.4809,460
23.5203,453
23.5597,397
23.599,444
23.6384,452
23.6778,410
23.7172,452
23.7566,470
23.796,453
23.8354,438
23.8748,432
23.9142,449
23.9536,431
23.993,425
24.0323,442
24.0717,438
24.1111,485
24.1505,492
24.1899,555
24.2293,565
24.2687,736
24.3081,1070
24.3475,1738
24.3869,2143
24.4263,1851
24.4656,1365
24.505,825
24.5444,654
24.5838,453
24.6232,462
24.6626,456
24.702,511
24.7414,415
24.7808,464
24.8202,430
24.8596,415
24.8989,430
24.9383,436
24.9777,426
25.0171,406
25.0565,432
25.0959,423
25.1353,428
25.1747,410
25.2141,425
25.2535,454
25.2929,390
25.3322,426
25.3716,472
25.411,444
25.4504,468
25.4898,462
25.5292,401
25.5686,418
25.608,439
25.6474,437
25.6868,435
25.7262,420
25.7655,480
25.8049,381
25.8443,452
25.8837,427
25.9231,408
25.9625,439
26.0019,426
26.0413,438
26.0807,454
26.1201,427
26.1595,481
26.1988,463
26.2382,493
26.2776,496
26.317,522
26.3564,571
26.3958,622
26.4352,713
26.4746,803
26.514,993
26.5534,977
26.5927,861
26.6321,711
26.6715,564
26.7109,518
26.7503,487
26.7897,520
26.8291,463
26.8685,418
26.9079,428
26.9473,438
26.9867,455
27.026,450
27.0654,390
27.1048,423
27.1442,421
27.1836,432
27.223,374
27.2624,434
27.3018,433
27.3412,443
27.3806,439
27.42,426
27.4593,458
27.4987,428
27.5381,444
27.5775,443
27.6169,432
27.6563,421
27.6957,403
27.7351,447
27.7745,453
27.8139,442
27.8533,437
27.8926,513
27.932,520
27.9714,622
28.0108,677
28.0502,886
28.0896,1224
28.129,1896
28.1684,3608
28.2078,5634
28.2472,3748
28.2866,2955
28.3259,1308
28.3653,768
28.4047,643
28.4441,526
28.4835,489
28.5229,487
28.5623,432
28.6017,439
28.6411,463
28.6805,434
28.7199,388
28.7592,406
28.7986,425
28.838,400
28.8774,385
28.9168,425
28.9562,391
28.9956,400
29.035,380
29.0744,380
29.1138,426
29.1532,371
29.1925,394
29.2319,370
29.2713,384
29.3107,389
29.3501,401
29.3895,403
29.4289,403
29.4683,421
29.5077,403
29.5471,409
29.5865,380
29.6258,377
29.6652,369
29.7046,370
29.744,384
29.7834,355
29.8228,388
29.8622,322
29.9016,365
29.941,403
29.9804,376
30.0198,385
30.0591,371
30.0985,334
30.1379,348
30.1773,391
30.2167,331
30.2561,386
30.2955,372
30.3349,334
30.3743,373
30.4137,355
30.4531,364
30.4924,376
30.5318,387
30.5712,374
30.6106,379
30.65,366
30.6894,369
30.7288,335
30.7682,326
30.8076,390
30.847,362
30.8864,339
30.9257,383
30.9651,380
31.0045,354
31.0439,333
31.0833,353
31.1227,382
31.1621,346
31.2015,371
31.2409,331
31.2803,384
31.3197,358
31.359,352
31.3984,419
31.4378,393
31.4772,440
31.5166,580
31.556,756
31.5954,1147
31.6348,1299
31.6742,1028
31.7136,821
31.753,559
31.7923,402
31.8317,369
31.8711,391
31.9105,354
31.9499,356
31.9893,348
32.0287,321
32.0681,335
32.1075,284
32.1469,344
32.1863,331
32.2256,350
32.265,331
32.3044,351
32.3438,376
32.3832,314
32.4226,364
32.462,324
32.5014,334
32.5408,284
32.5802,325
32.6195,289
32.6589,313
32.6983,299
32.7377,333
32.7771,346
32.8165,322
32.8559,322
32.8953,318
32.9347,289
32.9741,348
33.0135,335
33.0528,346
33.0922,300
33.1316,354
33.171,305
33.2104,334
33.2498,332
33.2892,317
33.3286,334
33.368,310
33.4074,322
33.4468,331
33.4861,377
33.5255,377
33.5649,358
33.6043,362
33.6437,385
33.6831,453
33.7225,438
33.7619,413
33.8013,439
33.8407,430
33.8801,391
33.9194,366
33.9588,333
33.9982,332
34.0376,337
34.077,319
34.1164,332
34.1558,303
34.1952,324
34.2346,341
34.274,295
34.3134,296
34.3527,302
34.3921,338
34.4315,310
34.4709,306
34.5103,316
34.5497,336
34.5891,305
34.6285,370
34.6679,450
34.7073,625
34.7467,603
34.786,538
34.8254,507
34.8648,489
34.9042,353
34.9436,336
34.983,326
35.0224,341
35.0618,310
35.1012,304
35.1406,285
35.18,311
35.2193,309
35.2587,290
35.2981,297
35.3375,270
35.3769,273
35.4163,298
35.4557,287
35.4951,272
35.5345,277
35.5739,249
35.6133,264
35.6526,294
35.692,288
35.7314,289
35.7708,298
35.8102,280
35.8496,268
35.889,283
35.9284,273
35.9678,231
36.0072,296
36.0466,291
36.0859,282
36.1253,285
36.1647,287
36.2041,272
36.2435,267
36.2829,307
36.3223,281
36.3617,287
36.4011,287
36.4405,305
36.4799,284
36.5192,234
36.5586,268
36.598,248
36.6374,274
36.6768,285
36.7162,268
36.7556,238
36.795,243
36.8344,307
36.8738,262
36.9132,249
36.9525,292
36.9919,264
37.0313,271
37.0707,284
37.1101,244
37.1495,295
37.1889,293
37.2283,286
37.2677,273
37.3071,270
37.3465,306
37.3858,324
37.4252,313
37.4646,327
37.504,280
37.5434,324
37.5828,319
37.6222,384
37.6616,461
37.701,532
37.7404,737
37.7798,817
37.8191,884
37.8585,891
37.8979,756
37.9373,603
37.9767,491
38.0161,423
38.0555,366
38.0949,324
38.1343,309
38.1737,294
38.2131,269
38.2524,246
38.2918,267
38.3312,294
38.3706,263
38.41,286
38.4494,248
38.4888,272
38.5282,227
38.5676,247
38.607,247
38.6463,262
38.6857,265
38.7251,238
38.7645,263
38.8039,259
38.8433,234
38.8827,289
38.9221,237
38.9615,237
39.0009,213
39.0403,256
39.0796,265
39.119,200
39.1584,241
39.1978,228
39.2372,216
39.2766,242
39.316,227
39.3554,236
39.3948,247
39.4342,245
39.4736,221
39.5129,279
39.5523,275
39.5917,275
39.6311,234
39.6705,244
39.7099,234
39.7493,241
39.7887,228
39.8281,270
39.8675,226
39.9069,262
39.9462,274
39.9856,256
40.025,263
40.0644,271
40.1038,263
40.1432,286
40.1826,309
40.222,413
40.2614,534
40.3008,778
40.3402,761
40.3795,706
40.4189,583
40.4583,465
40.4977,413
40.5371,295
40.5765,264
40.6159,260
40.6553,268
40.6947,272
40.7341,239
40.7735,247
40.8128,232
40.8522,237
40.8916,275
40.931,239
40.9704,222
41.0098,208
41.0492,235
41.0886,218
41.128,239
41.1674,240
41.2068,222
41.2461,234
41.2855,244
41.3249,218
41.3643,221
41.4037,237
41.4431,259
41.4825,244
41.5219,224
41.5613,226
41.6007,225
41.6401,226
41.6794,228
41.7188,215
41.7582,217
41.7976,236
41.837,222
41.8764,265
41.9158,219
41.9552,218
41.9946,200
42.034,257
42.0734,212
42.1127,219
42.1521,237
42.1915,245
42.2309,239
42.2703,229
42.3097,255
42.3491,267
42.3885,235
42.4279,245
42.4673,228
42.5067,233
42.546,274
42.5854,247
42.6248,306
42.6642,284
42.7036,289
42.743,359
42.7824,419
42.8218,709
42.8612,845
42.9006,755
42.94,690
42.9793,640
43.0187,512
43.0581,412
43.0975,343
43.1369,297
43.1763,286
43.2157,233
43.2551,224
43.2945,230
43.3339,230
43.3733,210
43.4126,215
43.452,212
43.4914,203
43.5308,209
43.5702,245
43.6096,228
43.649,245
43.6884,222
43.7278,199
43.7672,229
43.8066,223
43.8459,228
43.8853,248
43.9247,226
43.9641,231
44.0035,221
44.0429,209
44.0823,223
44.1217,206
44.1611,228
44.2005,222
44.2398,203
44.2792,210
44.3186,202
44.358,233
44.3974,209
44.4368,211
44.4762,211
44.5156,212
44.555,207
44.5944,202
44.6338,220
44.6731,239
44.7125,234
44.7519,213
44.7913,235
44.8307,217
44.8701,206
44.9095,184
44.9489,199
44.9883,182
45.0277,211
45.0671,195
45.1064,172
45.1458,224
45.1852,203
45.2246,211
45.264,208
45.3034,194
45.3428,226
45.3822,209
45.4216,221
45.461,237
45.5004,226
45.5397,225
45.5791,199
45.6185,208
45.6579,200
45.6973,195
45.7367,226
45.7761,199
45.8155,214
45.8549,217
45.8943,210
45.9337,212
45.973,205
46.0124,196
46.0518,199
46.0912,179
46.1306,216
46.17,215
46.2094,214
46.2488,205
46.2882,168
46.3276,215
46.367,200
46.4063,217
46.4457,212
46.4851,211
46.5245,206
46.5639,182
46.6033,217
46.6427,200
46.6821,197
46.7215,201
46.7609,225
46.8003,211
46.8396,212
46.879,177
46.9184,222
46.9578,184
46.9972,211
47.0366,192
47.076,205
47.1154,206
47.1548,199
47.1942,202
47.2336,209
47.2729,208
47.3123,210
47.3517,197
47.3911,206
47.4305,214
47.4699,205
47.5093,175
47.5487,193
47.5881,208
47.6275,239
47.6669,211
47.7062,230
47.7456,219
47.785,236
47.8244,199
47.8638,235
47.9032,200
47.9426,212
47.982,195
48.0214,182
48.0608,228
48.1002,188
48.1395,210
48.1789,196
48.2183,209
48.2577,183
48.2971,189
48.3365,209
48.3759,194
48.4153,184
48.4547,196
48.4941,189
48.5335,212
48.5728,194
48.6122,186
48.6516,181
48.691,226
48.7304,191
48.7698,173
48.8092,211
48.8486,227
48.888,189
48.9274,194
48.9668,189
49.0061,228
49.0455,195
49.0849,190
49.1243,219
49.1637,167
49.2031,184
49.2425,215
49.2819,183
49.3213,183
49.3607,193
49.4001,186
49.4394,167
49.4788,202
49.5182,193
49.5576,201
49.597,245
49.6364,216
49.6758,238
49.7152,246
49.7546,258
49.794,336
49.8334,437
49.8727,532
49.9121,668
49.9515,644
49.9909,587